Folder: DataAnalysis/Calibration

Note: README.md
# The DataAnalysis GitHub repository
© 2018-2019, Ricardo J. Fernández-Terán (ricardo.fernandez [at] chem.uzh.ch)

# 1. Description and contents
This project contains all the files that constitute two separate main graphical user interfaces (GUIs), which are now merged into a single window.
The interface was reprogrammed from the old GUIDE-based GUI to a new AppDesigner-based interface, which offers significant advantages.

The first one, **DataAnalysis_GUI** is designed to process, analyse and plot time-resolved data from pump-probe experiments
and time-resolved fluorescence spectra (obtained by combining several single-wavelength TCSPC measurements). Support for streak camera and general time-resolved data will be implemented in a future release.

The second one, **InterfDataAnalysis_GUI** is designed to process, phase, plot and analyse coherent two-dimensional IR (2D-IR) spectra acquired by spectral interferometry in the pump-probe geometry. The details of the setup used to acquire the data and the main processing algorithm are described in *J. Opt. Soc. Am. B **28**, 171-178 (2011)* [doi: 10.1364/JOSAB.28.000171](https://doi.org/10.1364/JOSAB.28.000171).


# 2. Basic requirements
The first implementation of the program was done in MATLAB R2016a, but current development will always run in the latest release.
The current version of the GUI **DOES NOT RUN** on earlier MATLAB versions than R2019a.
### 2.1 Current MATLAB version: R2019a

Both GUIs need a file, **"GUIoptions.txt"**, to be present in the same folder as the main App (NewGUI.mlapp).
The file no longer needs to be placed in C: (which was a major drawback of the previous implementation).

See the [About the GUIoptions.txt file](README.md#5-about-the-guioptionstxt-file) section below for more details.

### 2.2 Initial setup
To correctly run the scripts for the first time, download all folders and files and add them (including all subfolders) to the MATLAB path.
**IMPORTANT INFO IF UPDATING:**
If updating from previous versions of the GUI, clean the MATLAB path of the "Data Analysis GUI" subfolders and reload it. Many things have changed since then...

# 3. Pump-probe data analysis routine
The pump-probe data analysis routine can be called by running the `DataAnalysis_GUI` command from the MATLAB command line.
The initial screen contains buttons for all the features (which are disabled by default, and will be enabled according to the loaded data type).

The program has the following features:
- [x] 2D (contour) and 3D (surface) Plotting of the transient absorption/time-resolved emission data.
- [x] Automated background and offset subtraction.
- [x] Shifting of time/wavelength vectors for calibration.
- [x] Plotting of individual (selected) kinetic traces at a given wavelength.
- [x] Plotting of individual (selected) spectral traces at a given delay time.
- [x] Normalisation and plotting of normalised kinetic/spectral traces.
- [x] Plotting of the evolution of kinetic or spectral traces as

File: FTIR-PolystyreneFilm_2cm-1.csv
4000,0.0835
3988,0.0766
3976,0.0648
3964,0.0521
3952,0.0531
3940,0.0682
3928,0.0773
3916,0.0704
3904,0.0563
3892,0.0497
3880,0.0575
3868,0.071
3856,0.0713
3844,0.0603
3832,0.0492
3820,0.0516
3808,0.0658
3796,0.0764
3784,0.0692
3772,0.0544
3760,0.0468
3748,0.0524
3736,0.0714
3724,0.0789
3712,0.0618
3700,0.0523
3688,0.0467
3676,0.0626
3664,0.0763
3652,0.0816
3640,0.0648
3628,0.0509
3616,0.0577
3604,0.0688
3592,0.0733
3580,0.0591
3568,0.0424
3556,0.0421
3544,0.0576
3532,0.0724
3520,0.0701
3508,0.0545
3496,0.0447
3484,0.053
3472,0.0715
3460,0.0788
3448,0.0672
3436,0.0504
3424,0.0432
3412,0.0567
3400,0.0726
3388,0.0699
3376,0.0522
3364,0.0389
3352,0.0458
3340,0.065
3328,0.073
3316,0.06
3304,0.0423
3292,0.0399
3280,0.0573
3268,0.075
3256,0.0726
3244,0.0542
3232,0.0436
3220,0.0552
3208,8.01E-02
3196,0.088
3184,0.0717
3172,0.0594
3160,0.0795
3148,0.0895
3136,0.103
3124,0.101
3112,0.1705
3100,0.3306
3088,0.6101
3076,0.6859
3064,1.117
3052,0.7873
3040,0.7161
3028,2.1385
3016,0.7691
3004,0.537
2992,0.2751
2980,0.2268
2968,0.2647
2956,0.4947
2944,1.0921
2932,2.1679
2920,2.5285
2908,1.7747
2896,0.9347
2884,0.6215
2872,0.4399
2860,0.6441
2848,0.9364
2836,0.2971
2824,0.1506
2812,0.1128
2800,0.0975
2788,0.1094
2776,0.1201
2764,0.0952
2752,0.068
2740,0.0652
2728,0.0912
2716,0.1105
2704,0.1023
2692,0.08
2680,0.0674
2668,0.0803
2656,0.1035
2644,0.109
2632,0.0999
2620,0.0657
2608,0.0735
2596,0.0923
2584,0.1094
2572,0.094
2560,0.0688
2548,0.0594
2536,0.0713
2524,0.0972
2512,0.1036
2500,0.0805
2488,0.0559
2476,0.0527
2464,0.0729
2452,0.092
2440,0.0816
2428,0.0534
2416,0.0393
2404,0.0568
2392,0.0845
2380,0.0964
2368,0.0669
2356,0.0468
2344,0.0568
2332,0.0825
2320,0.0928
2308,0.0945
2296,0.0581
2284,0.0384
2272,0.0535
2260,0.0841
2248,0.0916
2236,0.0679
2224,0.0396
2212,0.0364
2200,0.0593
2188,0.085
2176,0.0778
2164,0.0479
2152,0.0284
2140,0.0399
2128,0.069
2116,0.0814
2104,0.061
2092,0.0311
2080,0.0259
2068,0.0523
2056,0.0783
2044,0.0743
2032,0.0466
2020,0.0266
2008,0.0429
1996,0.0788
1984,0.1049
1972,0.0965
1960,0.1464
1948,0.2098
1936,0.1828
1924,0.118
1912,0.0996
1900,0.0854
1888,0.129
1876,0.1759
1864,0.176
1852,0.1141
1840,0.0869
1828,0.0787
1816,0.1279
1804,0.2043
1792,0.1482
1780,0.1181
1768,0.0938
1756,0.1143
1744,0.1545
1732,0.1259
1720,0.1262
1708,0.1139
1696,0.0785
1684,0.0809
1672,0.1184
1660,0.1315
1648,0.113
1636,0.0818
1624,0.0817
1612,0.2064
1600,1.1463
1588,0.2849
1576,0.179
1564,0.0899
1552,0.1085
1540,0.1561
1528,0.1392
1516,0.1352
1504,0.215
1492,2.6883
1480,0.241
1468,0.2301
1456,1.2894
1444,1.1036
1432,0.2796
1420,0.1351
1408,0.0997
1396,0.1568
1384,0.335
1372,0.4496
1360,0.3811
1348,0.3204
1336,0.2744
1324,0.3266
1312,0.3461
1300,0.269
1288,0.2131
1276,0.1704
1264,0.1376
1252,0.1694
1240,0.175
1228,0.152
1216,0.1311
1204,0.1957
1192,0.2646
1180,0.369
1168,0.1909
1156,0.3334
1144,0.1114
1132,0.0898
1120,0.1392
1108,0.1711
1096,0.1649
1084,0.2138
1072,0.4175
1060,0.2906
1048,0.2215
1036,0.3058
1024,0.5688
1012,0.2439
1000,0.2142
988,0.2081
976,0.2468
964,0.2852
952,0.1669
940,0.1857
928,0.1474
916,0.2575
904,0.4687
892,0.1492
880,0.0807
868,0.0909
856,0.1317
844,0.2426
832,0.1173
820,0.0705
808,0.1118
796,0.1822
784,0.3463
772,1.0608
760,2.33
748,2.0116
736,0.5312
724,0.2258
712,0.5235
700,3.7583
688,0.6263
676,0.2777
664,0.204
652,0.0896
640,0.1057
628,0.2019
616,0.1899
604,0.1358
592,0.1736
580,0.2829
568,0.4921
556,0.676
544,0.9996
532,0.6518
520,0.2101
508,0.136
500,0.1316

File: FTIR-PolystyreneRAL(1.5mil)_2cm-1.csv
3.999158e+002,1.818494e-002
4.119687e+002,2.939922e-002
4.240216e+002,5.178800e-002
4.360746e+002,8.048041e-002
4.481275e+002,8.989371e-002
4.601804e+002,7.126492e-002
4.722333e+002,4.732697e-002
4.842862e+002,4.607971e-002
4.963391e+002,8.295061e-002
5.083921e+002,1.515993e-001
5.204449e+002,2.286208e-001
5.324979e+002,5.975002e-001
5.445508e+002,8.134778e-001
5.566037e+002,5.484299e-001
5.686566e+002,3.770396e-001
5.807095e+002,2.065309e-001
5.927625e+002,1.654681e-001
6.048154e+002,1.505700e-001
6.168683e+002,1.632025e-001
6.289212e+002,1.410788e-001
6.409741e+002,7.509517e-002
6.530270e+002,9.902750e-002
6.650800e+002,1.844890e-001
6.771329e+002,2.256485e-001
6.891858e+002,6.566932e-001
7.012387e+002,2.184245e+000
7.132916e+002,3.186915e-001
7.253445e+002,1.788617e-001
7.373975e+002,5.307761e-001
7.494504e+002,1.616509e+000
7.615033e+002,1.672237e+000
7.735562e+002,7.233760e-001
7.856091e+002,2.524570e-001
7.976620e+002,1.292541e-001
8.097150e+002,9.957890e-002
8.217679e+002,7.636075e-002
8.338208e+002,1.028190e-001
8.458737e+002,1.563792e-001
8.579266e+002,8.975533e-002
8.699796e+002,9.707112e-002
8.820325e+002,1.011627e-001
8.940854e+002,1.298988e-001
9.061383e+002,4.162460e-001
9.181912e+002,1.499201e-001
9.302441e+002,1.203225e-001
9.422970e+002,1.880805e-001
9.543500e+002,1.648601e-001
9.664028e+002,2.238754e-001
9.784558e+002,1.984004e-001
9.905087e+002,1.454800e-001
1.002562e+003,2.343485e-001
1.014615e+003,2.480536e-001
1.026667e+003,6.378500e-001
1.038720e+003,1.888170e-001
1.050773e+003,1.785845e-001
1.062826e+003,2.799466e-001
1.074879e+003,2.866516e-001
1.086932e+003,1.655402e-001
1.098985e+003,1.334536e-001
1.111038e+003,1.357719e-001
1.123091e+003,9.847477e-002
1.135144e+003,9.410761e-002
1.147197e+003,1.556819e-001
1.159250e+003,2.174266e-001
1.171302e+003,1.663455e-001
1.183355e+003,2.916640e-001
1.195408e+003,2.342602e-001
1.207461e+003,1.857582e-001
1.219514e+003,1.528904e-001
1.231567e+003,1.420157e-001
1.243620e+003,1.414219e-001
1.255673e+003,1.320369e-001
1.267726e+003,1.416997e-001
1.279779e+003,1.854992e-001
1.291832e+003,1.993881e-001
1.303885e+003,2.345312e-001
1.315938e+003,2.625989e-001
1.327990e+003,2.941866e-001
1.340043e+003,2.413457e-001
1.352096e+003,2.891129e-001
1.364149e+003,3.407273e-001
1.376202e+003,3.411003e-001
1.388255e+003,2.068829e-001
1.400308e+003,1.161004e-001
1.412361e+003,1.069934e-001
1.424414e+003,1.307995e-001
1.436467e+003,4.049307e-001
1.448520e+003,1.443392e+000
1.460572e+003,3.039696e-001
1.472625e+003,1.723991e-001
1.484678e+003,4.157761e-001
1.496731e+003,8.857536e-001
1.508784e+003,1.265089e-001
1.520837e+003,9.326216e-002
1.532890e+003,1.162364e-001
1.544943e+003,1.377354e-001
1.556996e+003,9.279642e-002
1.569049e+003,8.712153e-002
1.581102e+003,3.180359e-001
1.593155e+003,3.231044e-001
1.605207e+003,5.781852e-001
1.617260e+003,1.174067e-001
1.629313e+003,9.218690e-002
1.641366e+003,8.481241e-002
1.653419e+003,9.179929e-002
1.665472e+003,1.108150e-001
1.677525e+003,1.058255e-001
1.689578e+003,9.436990e-002
1.701631e+003,9.862452e-002
1.713684e+003,9.865870e-002
1.725737e+003,1.104857e-001
1.737790e+003,1.459989e-001
1.749842e+003,1.474784e-001
1.761895e+003,9.771073e-002
1.773948e+003,9.457682e-002
1.786001e+003,9.314574e-002
1.798054e+003,1.678280e-001
1.810107e+003,1.521979e-001
1.822160e+003,9.972299e-002
1.834213e+003,6.424693e-002
1.846266e+003,6.526463e-002
1.858319e+003,1.092941e-001
1.870372e+003,1.725094e-001
1.882425e+003,1.491518e-001
1.894477e+003,9.857645e-002
1.906530e+003,6.613159e-002
1.918583e+003,7.066590e-002
1.930636e+003,1.144840e-001
1.942689e+003,2.126266e-001
1.954742e+003,1.577253e-001
1.966795e+003,1.077760e-001
1.978848e+003,7.143720e-002
1.990901e+003,6.028808e-002
2.002954e+003,5.096896e-002
2.015007e+003,5.101781e-002
2.027060e+003,5.441987e-002
2.039112e+003,5.560932e-002
2.051166e+003,5.405718e-002
2.063218e+003,5.043821e-002
2.075271e+003,4.688529e-002
2.087324e+003,4.638145e-002
2.099377e+003,5.018906e-002
2.111430e+003,5.497164e-002
2.123483e+003,5.680125e-002
2.135536e+003,5.561648e-002
2.147589e+003,5.287395e-002
2.159642e+003,5.045303e-002
2.171695e+003,5.177631e-002
2.183748e+003,5.816337e-002
2.195801e+003,6.012518e-002
2.207853e+003,6.259244e-002
2.219906e+003,6.047328e-002
2.231959e+003,5.803027e-002
2.244012e+003,5.821239e-002
2.256065e+003,6.225881e-002
2.268118e+003,6.310384e-002
2.280171e+003,6.538355e-002
2.292224e+003,6.990477e-002
2.304277e+003,7.076515e-002
2.316330e+003,7.062536e-002
2.328383e+003,6.683489e-002
2.340436e+003,7.877924e-002
2.352488e+003,7.282081e-002
2.364541e+003,6.935879e-002
2.376594e+003,7.126523e-002
2.388647e+003,6.678507e-002
2.400700e+003,6.339165e-002
2.412753e+003,6.094018e-002
2.424806e+003,6.304584e-002
2.436859e+003,6.791171e-002
2.448912e+003,7.096119e-002
2.460965e+003,7.030490e-002
2.473017e+003,7.078288e-002
2.485070e+003,7.238407e-002
2.497123e+003,7.441220e-002
2.509176e+003,7.951452e-002
2.521229e+003,8.122788e-002
2.533282e+003,8.117571e-002
2.545335e+003,8.282208e-002
2.557388e+003,7.847414e-002
2.569441e+003,7.664776e-002
2.581494e+003,8.439596e-002
2.593547e+003,8.314465e-002
2.605600e+003,9.236465e-002
2.617652e+003,8.603800e-002
2.629705e+003,9.627728e-002
2.641758e+003,8.604220e-002
2.653811e+003,8.374699e-002
2.665864e+003,8.459838e-002
2.677917e+003,8.801418e-002
2.689970e+003,9.083635e-002
2.702023e+003,9.013491e-002
2.714076e+003,8.938421e-002
2.726129e+003,8.683881e-002
2.738182e+003,8.250749e-002
2.750235e+003,8.359991e-002
2.762287e+003,8.918476e-002
2.774340e+003,9.938317e-002
2.786393e+003,1.020065e-001
2.798446e+003,1.083269e-001
2.810499e+003,1.194095e-001
2.822552e+003,1.302812e-001
2.834605e+003,2.347428e-001
2.846658e+003,7.737918e-001
2.858711e+003,5.558649e-001
2.870764e+003,3.777547e-001
2.882817e+003,5.102901e-001
2.894870e+003,7.516437e-001
2.906922e+003,1.368007e+000
2.918975e+003,1.906229e+000
2.931028e+003,1.759039e+000
2.943081e+003,9.036540e-001
2.955134e+003,4.145554e-001
2.967187e+003,2.407227e-001
2.979240e+003,1.991839e-001
2.991293e+003,2.276061e-001
3.003346e+003,4.530781e-001
3.015399e+003,6.493164e-001
3.027452e+003,1.806074e+000
3.039505e+003,5.921149e-001
3.051557e+003,6.654171e-001
3.063610e+003,9.100055e-001
3.075663e+003,5.738028e-001
3.087716e+003,4.833335e-001
3.099769e+003,2.949096e-001
3.111822e+003,1.608458e-001
3.123875e+003,1.021090e-001
3.135928e+003,9.194873e-002
3.147981e+003,8.840451e-002
3.160034e+003,9.557635e-002
3.172087e+003,8.017496e-002
3.184140e+003,7.767635e-002
3.196192e+003,7.839575e-002
3.208245e+003,7.682501e-002
3.220298e+003,7.479978e-002
3.232351e+003,7.293117e-002
3.244404e+003,7.149755e-002
3.256457e+003,7.118805e-002
3.268510e+003,7.157753e-002
3.280563e+003,7.237933e-002
3.292616e+003,7.259569e-002
3.304669e+003,7.202891e-002
3.316722e+003,7.068661e-002
3.328775e+003,6.966839e-002
3.340827e+003,6.965011e-002
3.352880e+003,7.035127e-002
3.364933e+003,7.167619e-002
3.376986e+003,7.323412e-002
3.389039e+003,7.325259e-002
3.401092e+003,7.243832e-002
3.413145e+003,7.187652e-002
3.425198e+003,7.356561e-002
3.437251e+003,7.755009e-002
3.449304e+003,7.824536e-002
3.461357e+003,7.821425e-002
3.473409e+003,7.684185e-002
3.485462e+003,7.467321e-002
3.497515e+003,7.286596e-002
3.509568e+003,7.254423e-002
3.521621e+003,7.304594e-002
3.533674e+003,7.344525e-002
3.545727e+003,7.283598e-002
3.557780e+003,7.131915e-002
3.569833e+003,6.952461e-002
3.581886e+003,6.937080e-002
3.593939e+003,6.996506e-002
3.605992e+003,7.157401e-002
3.618044e+003,8.001379e-002
3.630097e+003,7.539593e-002
3.642150e+003,8.495136e-002
3.654203e+003,8.010948e-002
3.666256e+003,7.410285e-002
3.678309e+003,7.481804e-002
3.690362e+003,7.427859e-002
3.702415e+003,7.683291e-002
3.714468e+003,7.467722e-002
3.726521e+003,7.442053e-002
3.738574e+003,7.187448e-002
3.750627e+003,7.131274e-002
3.762679e+003,7.445514e-002
3.774732e+003,7.520035e-002
3.786785e+003,7.676782e-002
3.798838e+003,7.858551e-002
3.810891e+003,7.843652e-002
3.822944e+003,7.738414e-002
3.834997e+003,7.611626e-002
3.847050e+003,7.604764e-002
3.859103e+003,7.674292e-002
3.871156e+003,7.714347e-002
3.883209e+003,7.694912e-002
3.895262e+003,7.742624e-002
3.907314e+003,7.724748e-002
3.919367e+003,7.851166e-002
3.931420e+003,8.043340e-002
3.943473e+003,8.092327e-002
3.955526e+003,8.114608e-002
3.967579e+003,8.191219e-002
3.979632e+003,8.214492e-002
3.991685e+003,8.425871e-002
3.999881e+003,8.945301e-002

File: FTIR-PolystyreneRAL(3mil)_2cm-1.csv
3.999158e+002,5.109160e-002
4.119687e+002,1.125780e-001
4.240216e+002,9.490107e-002
4.360746e+002,6.929174e-002
4.481275e+002,1.281471e-001
4.601804e+002,1.073646e-001
4.722333e+002,9.367940e-002
4.842862e+002,1.544306e-001
4.963391e+002,1.482877e-001
5.083921e+002,2.246639e-001
5.204449e+002,3.836899e-001
5.324979e+002,1.099455e+000
5.445508e+002,1.539965e+000
5.566037e+002,1.044648e+000
5.686566e+002,7.540218e-001
5.807095e+002,4.150720e-001
5.927625e+002,3.114100e-001
6.048154e+002,2.574095e-001
6.168683e+002,2.715226e-001
6.289212e+002,2.907883e-001
6.409741e+002,1.629588e-001
6.530270e+002,2.082598e-001
6.650800e+002,3.280187e-001
6.771329e+002,5.003036e-001
6.891858e+002,1.277168e+000
7.012387e+002,3.322021e+000
7.132916e+002,7.583600e-001
7.253445e+002,4.745380e-001
7.373975e+002,1.139044e+000
7.494504e+002,3.084596e+000
7.615033e+002,3.037019e+000
7.735562e+002,1.452282e+000
7.856091e+002,5.241199e-001
7.976620e+002,2.331316e-001
8.097150e+002,1.958922e-001
8.217679e+002,1.508579e-001
8.338208e+002,2.395985e-001
8.458737e+002,3.264161e-001
8.579266e+002,1.633213e-001
8.699796e+002,1.879706e-001
8.820325e+002,1.912829e-001
8.940854e+002,2.934738e-001
9.061383e+002,9.334926e-001
9.181912e+002,4.074942e-001
9.302441e+002,2.660247e-001
9.422970e+002,4.125479e-001
9.543500e+002,4.732414e-001
9.664028e+002,1.178123e+000
9.784558e+002,6.353523e-001
9.905087e+002,4.526432e-001
1.002562e+003,5.585775e-001
1.014615e+003,5.524008e-001
1.026667e+003,1.303352e+000
1.038720e+003,4.081105e-001
1.050773e+003,4.116721e-001
1.062826e+003,6.152032e-001
1.074879e+003,6.310190e-001
1.086932e+003,3.841169e-001
1.098985e+003,2.889641e-001
1.111038e+003,2.624517e-001
1.123091e+003,1.953541e-001
1.135144e+003,1.869371e-001
1.147197e+003,2.906535e-001
1.159250e+003,4.093295e-001
1.171302e+003,3.339212e-001
1.183355e+003,5.707338e-001
1.195408e+003,4.542486e-001
1.207461e+003,3.429580e-001
1.219514e+003,2.756511e-001
1.231567e+003,2.863927e-001
1.243620e+003,2.955751e-001
1.255673e+003,2.646858e-001
1.267726e+003,2.925812e-001
1.279779e+003,3.735579e-001
1.291832e+003,4.163693e-001
1.303885e+003,5.207512e-001
1.315938e+003,5.756158e-001
1.327990e+003,6.117644e-001
1.340043e+003,5.084192e-001
1.352096e+003,6.120279e-001
1.364149e+003,6.967620e-001
1.376202e+003,7.208760e-001
1.388255e+003,4.241640e-001
1.400308e+003,2.800779e-001
1.412361e+003,2.632858e-001
1.424414e+003,3.276971e-001
1.436467e+003,1.053128e+000
1.448520e+003,2.991133e+000
1.460572e+003,7.759941e-001
1.472625e+003,4.063306e-001
1.484678e+003,8.252451e-001
1.496731e+003,1.664104e+000
1.508784e+003,2.506875e-001
1.520837e+003,1.716855e-001
1.532890e+003,2.169208e-001
1.544943e+003,2.578239e-001
1.556996e+003,1.543987e-001
1.569049e+003,1.715553e-001
1.581102e+003,6.145901e-001
1.593155e+003,6.319622e-001
1.605207e+003,1.112033e+000
1.617260e+003,2.262374e-001
1.629313e+003,1.725865e-001
1.641366e+003,1.973852e-001
1.653419e+003,2.091594e-001
1.665472e+003,2.349999e-001
1.677525e+003,2.156589e-001
1.689578e+003,1.907373e-001
1.701631e+003,2.006550e-001
1.713684e+003,2.137157e-001
1.725737e+003,2.387452e-001
1.737790e+003,3.024155e-001
1.749842e+003,2.974225e-001
1.761895e+003,1.954789e-001
1.773948e+003,1.728217e-001
1.786001e+003,1.644621e-001
1.798054e+003,3.075892e-001
1.810107e+003,2.730367e-001
1.822160e+003,1.797681e-001
1.834213e+003,1.148856e-001
1.846266e+003,1.056898e-001
1.858319e+003,1.852923e-001
1.870372e+003,3.061273e-001
1.882425e+003,2.574444e-001
1.894477e+003,1.623752e-001
1.906530e+003,1.094321e-001
1.918583e+003,1.181955e-001
1.930636e+003,2.006560e-001
1.942689e+003,3.902219e-001
1.954742e+003,2.750081e-001
1.966795e+003,1.745313e-001
1.978848e+003,1.127684e-001
1.990901e+003,9.543709e-002
2.002954e+003,7.950573e-002
2.015007e+003,7.694204e-002
2.027060e+003,7.343944e-002
2.039112e+003,7.127999e-002
2.051166e+003,7.251647e-002
2.063218e+003,7.063094e-002
2.075271e+003,7.008466e-002
2.087324e+003,7.125558e-002
2.099377e+003,7.052744e-002
2.111430e+003,7.205691e-002
2.123483e+003,7.411574e-002
2.135536e+003,7.394533e-002
2.147589e+003,7.588787e-002
2.159642e+003,7.827718e-002
2.171695e+003,7.883688e-002
2.183748e+003,8.456501e-002
2.195801e+003,8.297896e-002
2.207853e+003,8.481954e-002
2.219906e+003,8.456980e-002
2.231959e+003,8.846442e-002
2.244012e+003,9.232048e-002
2.256065e+003,9.770795e-002
2.268118e+003,9.397714e-002
2.280171e+003,9.230445e-002
2.292224e+003,9.951594e-002
2.304277e+003,1.056651e-001
2.316330e+003,1.091710e-001
2.328383e+003,1.067746e-001
2.340436e+003,1.274367e-001
2.352488e+003,1.040675e-001
2.364541e+003,9.833886e-002
2.376594e+003,1.004567e-001
2.388647e+003,1.019695e-001
2.400700e+003,1.006135e-001
2.412753e+003,9.829191e-002
2.424806e+003,9.838486e-002
2.436859e+003,1.012776e-001
2.448912e+003,1.044416e-001
2.460965e+003,1.051139e-001
2.473017e+003,1.114593e-001
2.485070e+003,1.204047e-001
2.497123e+003,1.256870e-001
2.509176e+003,1.324369e-001
2.521229e+003,1.314883e-001
2.533282e+003,1.291897e-001
2.545335e+003,1.349738e-001
2.557388e+003,1.326966e-001
2.569441e+003,1.334219e-001
2.581494e+003,1.485596e-001
2.593547e+003,1.435670e-001
2.605600e+003,1.584067e-001
2.617652e+003,1.458332e-001
2.629705e+003,1.704681e-001
2.641758e+003,1.559547e-001
2.653811e+003,1.552338e-001
2.665864e+003,1.570426e-001
2.677917e+003,1.589825e-001
2.689970e+003,1.590414e-001
2.702023e+003,1.575624e-001
2.714076e+003,1.607464e-001
2.726129e+003,1.607771e-001
2.738182e+003,1.543225e-001
2.750235e+003,1.549048e-001
2.762287e+003,1.637203e-001
2.774340e+003,1.865083e-001
2.786393e+003,2.019332e-001
2.798446e+003,2.300524e-001
2.810499e+003,2.746938e-001
2.822552e+003,3.642926e-001
2.834605e+003,8.549405e-001
2.846658e+003,2.555764e+000
2.858711e+003,1.706124e+000
2.870764e+003,1.198811e+000
2.882817e+003,1.509234e+000
2.894870e+003,2.261041e+000
2.906922e+003,6.000000e+000
2.918975e+003,6.000000e+000
2.931028e+003,6.000000e+000
2.943081e+003,2.695564e+000
2.955134e+003,1.471845e+000
2.967187e+003,8.604176e-001
2.979240e+003,6.838339e-001
2.991293e+003,7.034637e-001
3.003346e+003,1.253239e+000
3.015399e+003,1.539002e+000
3.027452e+003,6.000000e+000
3.039505e+003,1.228140e+000
3.051557e+003,1.338441e+000
3.063610e+003,1.839098e+000
3.075663e+003,1.170503e+000
3.087716e+003,9.469673e-001
3.099769e+003,5.750574e-001
3.111822e+003,3.057337e-001
3.123875e+003,1.874827e-001
3.135928e+003,1.658721e-001
3.147981e+003,1.606552e-001
3.160034e+003,1.777549e-001
3.172087e+003,1.497870e-001
3.184140e+003,1.448340e-001
3.196192e+003,1.444665e-001
3.208245e+003,1.399916e-001
3.220298e+003,1.365814e-001
3.232351e+003,1.358072e-001
3.244404e+003,1.362618e-001
3.256457e+003,1.368082e-001
3.268510e+003,1.367696e-001
3.280563e+003,1.368181e-001
3.292616e+003,1.369786e-001
3.304669e+003,1.370394e-001
3.316722e+003,1.374544e-001
3.328775e+003,1.383864e-001
3.340827e+003,1.393805e-001
3.352880e+003,1.397547e-001
3.364933e+003,1.408776e-001
3.376986e+003,1.433000e-001
3.389039e+003,1.444847e-001
3.401092e+003,1.450700e-001
3.413145e+003,1.449535e-001
3.425198e+003,1.470107e-001
3.437251e+003,1.516856e-001
3.449304e+003,1.495178e-001
3.461357e+003,1.473325e-001
3.473409e+003,1.446168e-001
3.485462e+003,1.408764e-001
3.497515e+003,1.363548e-001
3.509568e+003,1.323012e-001
3.521621e+003,1.283463e-001
3.533674e+003,1.245288e-001
3.545727e+003,1.205047e-001
3.557780e+003,1.167535e-001
3.569833e+003,1.137549e-001
3.581886e+003,1.129471e-001
3.593939e+003,1.106490e-001
3.605992e+003,1.096945e-001
3.618044e+003,1.244477e-001
3.630097e+003,1.146546e-001
3.642150e+003,1.338496e-001
3.654203e+003,1.249571e-001
3.666256e+003,1.126191e-001
3.678309e+003,1.116832e-001
3.690362e+003,1.067670e-001
3.702415e+003,1.089257e-001
3.714468e+003,1.059354e-001
3.726521e+003,1.046086e-001
3.738574e+003,1.029530e-001
3.750627e+003,1.055315e-001
3.762679e+003,1.077684e-001
3.774732e+003,1.071026e-001
3.786785e+003,1.093104e-001
3.798838e+003,1.145221e-001
3.810891e+003,1.150700e-001
3.822944e+003,1.149353e-001
3.834997e+003,1.129286e-001
3.847050e+003,1.108987e-001
3.859103e+003,1.109731e-001
3.871156e+003,1.117293e-001
3.883209e+003,1.122327e-001
3.895262e+003,1.142189e-001
3.907314e+003,1.151445e-001
3.919367e+003,1.171338e-001
3.931420e+003,1.194093e-001
3.943473e+003,1.189749e-001
3.955526e+003,1.187322e-001
3.967579e+003,1.213315e-001
3.979632e+003,1.231933e-001
3.991685e+003,1.283492e-001
3.999881e+003,1.382411e-001